Folder: mlp_stress_strain

File: l_d_test82.csv
,Axial Displacement (mm),Axial Force (kN)
0,-9.179688e-05,0.02320006
28,0.008398438,0.07428225
56,0.01689844,0.1102771
84,0.02539844,0.1474482
112,0.03389844,0.1763504
140,0.04189648,0.2010105
168,0.05047461,0.2290005
196,0.05889844,0.2508954
224,0.06715039,0.2703289
252,0.07589844,0.2949253
280,0.08479884,0.3148111
308,0.09239649,0.3242086
336,0.1008965,0.3414549
364,0.1093984,0.3575369
392,0.1178984,0.3719094
420,0.1263984,0.3852775
448,0.1343984,0.3938353
476,0.1428984,0.4052707
504,0.1513985,0.4130434
532,0.1598984,0.4234645
560,0.1678984,0.4270895
588,0.1763965,0.4349987
616,0.1848965,0.4411159
644,0.1933984,0.4492614
672,0.2018984,0.4560491
700,0.2099258,0.4581424
728,0.2188867,0.4656625
756,0.2268965,0.4667308
784,0.2353984,0.4730552
812,0.2440762,0.4796873
840,0.2523985,0.4818246
868,0.2604375,0.4853992
896,0.2688985,0.4876429
924,0.2773965,0.4908795
952,0.2857969,0.4916373
980,0.2943965,0.4973044
1008,0.3023984,0.493838
1036,0.3108965,0.4966593
1064,0.3193574,0.4971315
1092,0.3278984,0.504375
1120,0.3358965,0.5089052
1148,0.3443965,0.5141344
1176,0.3533984,0.5156284
1204,0.3613985,0.5143113
1232,0.3698985,0.5211484
1260,0.3783984,0.5226466
1288,0.3868965,0.5265663
1316,0.3948984,0.5276517
1344,0.4028985,0.5285275
1372,0.4118985,0.5316412
1400,0.4203399,0.5336934
1428,0.4286778,0.5349625
1456,0.4368965,0.5361618
1484,0.4453203,0.5379642
1512,0.4533965,0.5379745
1540,0.4623946,0.54342
1568,0.4708965,0.5458614
1596,0.4788965,0.5447521
1624,0.4873965,0.5460302
1652,0.4958985,0.5483476
1680,0.5043985,0.5503846
1708,0.5128965,0.5533081
1736,0.5208985,0.5530848
1764,0.5293984,0.554608
1792,0.5374414,0.5547135
1820,0.5461563,0.5574976
1848,0.5544258,0.5592384
1876,0.5628985,0.5610667
1904,0.5713984,0.5623564
1932,0.5799609,0.5647714
1960,0.5880606,0.5635153
1988,0.5963965,0.5646321
2016,0.6048985,0.5656751
2044,0.6133985,0.5669824
2072,0.6218281,0.5695283
2100,0.6303985,0.5722157
2128,0.6388985,0.5753516
2156,0.6468614,0.5718976
2184,0.6553965,0.5757164
2212,0.6638985,0.5800257
2240,0.6723984,0.5805122
2268,0.6804141,0.5818669
2296,0.6888965,0.5844471
2324,0.6973985,0.5866509
2352,0.7054024,0.5846842
2380,0.7138985,0.5869328
2408,0.722416,0.5888632
2436,0.7308965,0.5903565
2464,0.7393985,0.5921319
2492,0.7478985,0.5953356
2520,0.7563985,0.5959641
2548,0.7646485,0.5971071
2576,0.7733926,0.6003975
2604,0.7813985,0.5995828
2632,0.7898985,0.6030174
2660,0.7983985,0.603596
2688,0.8068985,0.6084745
2716,0.8148965,0.6061727
2744,0.8233965,0.6074598
2772,0.8318946,0.6071641
2800,0.8398965,0.6073581
2828,0.8488985,0.6113114
2856,0.8568965,0.6127587
2884,0.8653575,0.6123299
2912,0.8735274,0.6131298
2940,0.8823965,0.6154529
2968,0.8906797,0.6162847
2996,0.8988965,0.6178651
3024,0.9073985,0.6197013
3052,0.9158985,0.6233453
3080,0.9242969,0.6235573
3108,0.9323985,0.6239882
3136,0.9408965,0.6235999
3164,0.9493985,0.628512
3192,0.9578985,0.6284673
3220,0.9658965,0.6290714
3248,0.9743985,0.6315877
3276,0.9828966,0.6337132
3304,0.9913965,0.6354021
3332,0.9998986,0.6382267
3360,1.008399,0.6399819
3388,1.016398,0.6389751
3416,1.02532,0.6438141
3444,1.033399,0.6423513
3472,1.0415,0.6436912
3500,1.050398,0.6483344
3528,1.058397,0.6478571
3556,1.066898,0.6501885
3584,1.075397,0.6509951
3612,1.083899,0.6535812
3640,1.092399,0.6543788
3668,1.100397,0.6543669
3696,1.108896,0.6575222
3724,1.117399,0.6581531
3752,1.125437,0.6579556
3780,1.1339,0.6596187
3808,1.142637,0.6626917
3836,1.15092,0.6636806
3864,1.159858,0.6664692
3892,1.167899,0.6672317
3920,1.176399,0.6676903
3948,1.184529,0.6686049
3976,1.192896,0.6702725
4004,1.201398,0.670641
4032,1.209898,0.672215
4060,1.218074,0.6737218
4088,1.226398,0.6744767
4116,1.234897,0.6766795
4144,1.243399,0.6774244
4172,1.251899,0.6781336
4200,1.259899,0.6773829
4228,1.268396,0.6790917
4256,1.277268,0.6834668
4284,1.285398,0.6819173
4312,1.293898,0.685149
4340,1.302398,0.6854802
4368,1.310658,0.6857582
4396,1.319399,0.687856
4424,1.327899,0.689965
4452,1.335896,0.6893658
4480,1.344061,0.6880395
4508,1.352399,0.6886147
4536,1.360898,0.6899486
4564,1.36892,0.6883361
4592,1.377856,0.6910129
4620,1.386399,0.6938246
4648,1.3949,0.6948596
4676,1.402899,0.693378
4704,1.411399,0.6947773
4732,1.419899,0.694913
4760,1.428398,0.6978025
4788,1.436399,0.6965398
4816,1.444898,0.6980397
4844,1.453398,0.6994191
4872,1.461617,0.6977996
4900,1.470393,0.6994675
4928,1.478561,0.7008249
4956,1.486899,0.6991265
4984,1.495399,0.7024035
5012,1.503899,0.7024581
5040,1.511897,0.7032152
5068,1.520897,0.7046707
5096,1.528898,0.7032486
5124,1.537398,0.7067437
5152,1.545897,0.7059632
5180,1.553898,0.704876
5208,1.562399,0.7064788
5236,1.570899,0.7081321
5264,1.579397,0.7067744
5292,1.587898,0.7075719
5320,1.595955,0.7079188
5348,1.604398,0.7097798
5376,1.613397,0.7128122
5404,1.621399,0.7102571
5432,1.629899,0.7105961
5460,1.638399,0.7131578
5488,1.646397,0.7125467
5516,1.655375,0.7151362
5544,1.663397,0.7132914
5572,1.671898,0.7163339
5600,1.679899,0.7134821
5628,1.688899,0.7196012
5656,1.696898,0.7154037
5684,1.705219,0.7151793
5712,1.713475,0.7157501
5740,1.722137,0.7170665
5768,1.730893,0.7195687
5796,1.738899,0.7192643
5824,1.747393,0.7194891
5852,1.755898,0.7214471
5880,1.764268,0.7205594
5908,1.772563,0.7216291
5936,1.780899,0.7220295
5964,1.789397,0.7213523
5992,1.797527,0.7214514
6020,1.806197,0.7229437
6048,1.8145,0.7242908
6076,1.822897,0.72491
6104,1.831398,0.7263992
6132,1.839897,0.7260231
6160,1.848234,0.7262219
6188,1.856397,0.7255879
6216,1.864899,0.7275961
6244,1.873438,0.7290453
6272,1.881889,0.7279551
6300,1.890397,0.7301811
6328,1.898399,0.7272692
6356,1.906897,0.729133
6384,1.915398,0.7286043
6412,1.923899,0.7306794
6440,1.932399,0.7335851
6468,1.940899,0.7332445
6496,1.94884,0.7307375
6524,1.9574,0.7321625
6552,1.965658,0.7317343
6580,1.974395,0.7337806
6608,1.982397,0.7326679
6636,1.990897,0.7349926
6664,1.999399,0.7349104
6692,2.007899,0.7346125
6720,2.016397,0.7374926
6748,2.024397,0.7348847
6776,2.032897,0.7376855
6804,2.041399,0.7354226
6832,2.049899,0.7374999
6860,2.058,0.7372915
6888,2.066897,0.7398564
6916,2.075397,0.7405067
6944,2.083399,0.7380896
6972,2.091898,0.7388032
7000,2.100389,0.7401196
7028,2.108899,0.7401955
7056,2.116899,0.7401127
7084,2.125396,0.7422222
7112,2.133898,0.7405316
7140,2.141896,0.7397005
7168,2.150397,0.7406372
7196,2.159375,0.7442631
7224,2.167295,0.7408704
7252,2.175899,0.7428172
7280,2.184397,0.7431906
7308,2.192899,0.7447301
7336,2.200899,0.7439947
7364,2.209369,0.7415686
7392,2.217899,0.7434008
7420,2.226398,0.7451349
7448,2.234783,0.7441257
7476,2.242898,0.7446791
7504,2.251399,0.7452545
7532,2.259897,0.7456455
7560,2.268399,0.7447937
7588,2.276399,0.7442389
7616,2.284899,0.7455053
7644,2.292908,0.7436569
7672,2.301414,0.7446378
7700,2.310399,0.746795
7728,2.318887,0.7473393
7756,2.327295,0.7480842
7784,2.335397,0.7467482
7812,2.343899,0.7477973
7840,2.352399,0.749362
7868,2.360576,0.748893
7896,2.368896,0.747108
7924,2.377397,0.7494394
7952,2.385719,0.7472557
7980,2.394297,0.7483383
8008,2.402397,0.7477515
8036,2.410897,0.74924
8064,2.419399,0.7487962
8092,2.427899,0.7491204
8111,2.433397,0.7504742